[
    {
        "rt": 771,
        "stimulus": "Great job! Now we will begin the real study. You will take many of the tasks in random order.  Please do all the work in your head (don't use paper to help).",
        "key_press": 32,
        "trial_type": "html-keyboard-response",
        "trial_index": 0,
        "time_elapsed": 772,
        "internal_node_id": "0.0-0.0"
    },
    {
        "rt": 464,
        "stimulus": "It is important that you take your time for each answer (it is designed to get difficult).  Only one of the tasks requires you to respond quickly, and we will remind you for that task.",
        "key_press": 32,
        "trial_type": "html-keyboard-response",
        "trial_index": 1,
        "time_elapsed": 1237,
        "internal_node_id": "0.0-1.0"
    },
    {
        "rt": 833,
        "stimulus": "Block 1 of 3",
        "key_press": 32,
        "trial_type": "html-keyboard-response",
        "trial_index": 2,
        "time_elapsed": 2071,
        "internal_node_id": "0.0-2.0"
    },
    {
        "rt": 1226,
        "stimulus": "Rehearse the numbers in reverse order. (last to first)",
        "key_press": 32,
        "stims_type": "3 digits no repeats",
        "item": "451",
        "difficulty": "easy",
        "item_type": "WMBackwardDigitSpan",
        "answer": "362",
        "trial_type": "html-keyboard-response",
        "trial_index": 3,
        "time_elapsed": 3299,
        "internal_node_id": "0.0-3.0-0.0"
    },
    {
        "rt": null,
        "stimulus": "Rehearse the numbers in reverse order. (last to first)",
        "key_press": null,
        "stims_type": "3 digits no repeats",
        "item": "451",
        "difficulty": "easy",
        "item_type": "WMBackwardDigitSpan",
        "answer": "362",
        "trial_type": "html-keyboard-response",
        "trial_index": 4,
        "time_elapsed": 4300,
        "internal_node_id": "0.0-3.0-1.0"
    },
    {
        "rt": null,
        "stimulus": "<p style=\"font-size: 100px\">9</p>",
        "key_press": null,
        "stims_type": "3 digits no repeats",
        "item": "451",
        "difficulty": "easy",
        "item_type": "WMBackwardDigitSpan",
        "answer": "362",
        "trial_type": "html-keyboard-response",
        "trial_index": 5,
        "time_elapsed": 5300,
        "internal_node_id": "0.0-3.0-2.0"
    },
    {
        "rt": null,
        "stimulus": "<p></p>",
        "key_press": null,
        "stims_type": "3 digits no repeats",
        "item": "451",
        "difficulty": "easy",
        "item_type": "WMBackwardDigitSpan",
        "answer": "362",
        "trial_type": "html-keyboard-response",
        "trial_index": 6,
        "time_elapsed": 6301,
        "internal_node_id": "0.0-3.0-3.0"
    },
    {
        "rt": null,
        "stimulus": "<p style=\"font-size: 100px\">1</p>",
        "key_press": null,
        "stims_type": "3 digits no repeats",
        "item": "451",
        "difficulty": "easy",
        "item_type": "WMBackwardDigitSpan",
        "answer": "362",
        "trial_type": "html-keyboard-response",
        "trial_index": 7,
        "time_elapsed": 7302,
        "internal_node_id": "0.0-3.0-4.0"
    },
    {
        "rt": null,
        "stimulus": "<p></p>",
        "key_press": null,
        "stims_type": "3 digits no repeats",
        "item": "451",
        "difficulty": "easy",
        "item_type": "WMBackwardDigitSpan",
        "answer": "362",
        "trial_type": "html-keyboard-response",
        "trial_index": 8,
        "time_elapsed": 8303,
        "internal_node_id": "0.0-3.0-5.0"
    },
    {
        "rt": null,
        "stimulus": "<p style=\"font-size: 100px\">5</p>",
        "key_press": null,
        "stims_type": "3 digits no repeats",
        "item": "451",
        "difficulty": "easy",
        "item_type": "WMBackwardDigitSpan",
        "answer": "362",
        "trial_type": "html-keyboard-response",
        "trial_index": 9,
        "time_elapsed": 9304,
        "internal_node_id": "0.0-3.0-6.0"
    },
    {
        "rt": null,
        "stimulus": "<p></p>",
        "key_press": null,
        "stims_type": "3 digits no repeats",
        "item": "451",
        "difficulty": "easy",
        "item_type": "WMBackwardDigitSpan",
        "answer": "362",
        "trial_type": "html-keyboard-response",
        "trial_index": 10,
        "time_elapsed": 10305,
        "internal_node_id": "0.0-3.0-7.0"
    },
    {
        "rt": null,
        "stimulus": "<p style=\"font-size: 120px\">+</p>",
        "key_press": null,
        "stims_type": "3 digits no repeats",
        "item": "451",
        "difficulty": "easy",
        "item_type": "WMBackwardDigitSpan",
        "answer": "362",
        "trial_type": "html-keyboard-response",
        "trial_index": 11,
        "time_elapsed": 11307,
        "internal_node_id": "0.0-3.0-8.0"
    },
    {
        "rt": 3177.7750000037486,
        "answer": "519",
        "response": "11",
        "stored": true,
        "stims_type": "3 digits no repeats",
        "item": "451",
        "difficulty": "easy",
        "item_type": "WMBackwardDigitSpan",
        "trial_type": "string-entry",
        "trial_index": 12,
        "time_elapsed": 14488,
        "internal_node_id": "0.0-3.0-9.0"
    },
    {
        "rt": 368,
        "stimulus": "Press space to continue...",
        "key_press": 32,
        "stims_type": "3 digits no repeats",
        "item": "451",
        "difficulty": "easy",
        "item_type": "WMBackwardDigitSpan",
        "answer": "362",
        "trial_type": "html-keyboard-response",
        "trial_index": 13,
        "time_elapsed": 14857,
        "internal_node_id": "0.0-3.0-10.0"
    },
    {
        "rt": null,
        "stimulus": "<p style=\"font-size: 100px\">4</p>",
        "key_press": null,
        "stims_type": "3 digits no repeats",
        "item": "451",
        "difficulty": "easy",
        "item_type": "WMBackwardDigitSpan",
        "answer": "362",
        "trial_type": "html-keyboard-response",
        "trial_index": 14,
        "time_elapsed": 15859,
        "internal_node_id": "0.0-3.0-11.0"
    },
    {
        "rt": null,
        "stimulus": "<p></p>",
        "key_press": null,
        "stims_type": "3 digits no repeats",
        "item": "451",
        "difficulty": "easy",
        "item_type": "WMBackwardDigitSpan",
        "answer": "362",
        "trial_type": "html-keyboard-response",
        "trial_index": 15,
        "time_elapsed": 16860,
        "internal_node_id": "0.0-3.0-12.0"
    },
    {
        "rt": null,
        "stimulus": "<p style=\"font-size: 100px\">5</p>",
        "key_press": null,
        "stims_type": "3 digits no repeats",
        "item": "451",
        "difficulty": "easy",
        "item_type": "WMBackwardDigitSpan",
        "answer": "362",
        "trial_type": "html-keyboard-response",
        "trial_index": 16,
        "time_elapsed": 17861,
        "internal_node_id": "0.0-3.0-13.0"
    },
    {
        "rt": null,
        "stimulus": "<p></p>",
        "key_press": null,
        "stims_type": "3 digits no repeats",
        "item": "451",
        "difficulty": "easy",
        "item_type": "WMBackwardDigitSpan",
        "answer": "362",
        "trial_type": "html-keyboard-response",
        "trial_index": 17,
        "time_elapsed": 18862,
        "internal_node_id": "0.0-3.0-14.0"
    },
    {
        "rt": null,
        "stimulus": "<p style=\"font-size: 100px\">1</p>",
        "key_press": null,
        "stims_type": "3 digits no repeats",
        "item": "451",
        "difficulty": "easy",
        "item_type": "WMBackwardDigitSpan",
        "answer": "362",
        "trial_type": "html-keyboard-response",
        "trial_index": 18,
        "time_elapsed": 19863,
        "internal_node_id": "0.0-3.0-15.0"
    },
    {
        "rt": null,
        "stimulus": "<p></p>",
        "key_press": null,
        "stims_type": "3 digits no repeats",
        "item": "451",
        "difficulty": "easy",
        "item_type": "WMBackwardDigitSpan",
        "answer": "362",
        "trial_type": "html-keyboard-response",
        "trial_index": 19,
        "time_elapsed": 20864,
        "internal_node_id": "0.0-3.0-16.0"
    },
    {
        "rt": null,
        "stimulus": "<p style=\"font-size: 120px\">+</p>",
        "key_press": null,
        "stims_type": "3 digits no repeats",
        "item": "451",
        "difficulty": "easy",
        "item_type": "WMBackwardDigitSpan",
        "answer": "362",
        "trial_type": "html-keyboard-response",
        "trial_index": 20,
        "time_elapsed": 21865,
        "internal_node_id": "0.0-3.0-17.0"
    },
    {
        "rt": 2098.4750000061467,
        "answer": "154",
        "response": "123",
        "stored": true,
        "stims_type": "3 digits no repeats",
        "item": "451",
        "difficulty": "easy",
        "item_type": "WMBackwardDigitSpan",
        "trial_type": "string-entry",
        "trial_index": 21,
        "time_elapsed": 23967,
        "internal_node_id": "0.0-3.0-18.0"
    },
    {
        "rt": 486,
        "stimulus": "Press space to continue...",
        "key_press": 32,
        "stims_type": "3 digits no repeats",
        "item": "451",
        "difficulty": "easy",
        "item_type": "WMBackwardDigitSpan",
        "answer": "362",
        "trial_type": "html-keyboard-response",
        "trial_index": 22,
        "time_elapsed": 24455,
        "internal_node_id": "0.0-3.0-19.0"
    },
    {
        "rt": null,
        "stimulus": "<p style=\"font-size: 100px\">2</p>",
        "key_press": null,
        "stims_type": "3 digits no repeats",
        "item": "451",
        "difficulty": "easy",
        "item_type": "WMBackwardDigitSpan",
        "answer": "362",
        "trial_type": "html-keyboard-response",
        "trial_index": 23,
        "time_elapsed": 25456,
        "internal_node_id": "0.0-3.0-20.0"
    },
    {
        "rt": null,
        "stimulus": "<p></p>",
        "key_press": null,
        "stims_type": "3 digits no repeats",
        "item": "451",
        "difficulty": "easy",
        "item_type": "WMBackwardDigitSpan",
        "answer": "362",
        "trial_type": "html-keyboard-response",
        "trial_index": 24,
        "time_elapsed": 26457,
        "internal_node_id": "0.0-3.0-21.0"
    },
    {
        "rt": null,
        "stimulus": "<p style=\"font-size: 100px\">6</p>",
        "key_press": null,
        "stims_type": "3 digits no repeats",
        "item": "451",
        "difficulty": "easy",
        "item_type": "WMBackwardDigitSpan",
        "answer": "362",
        "trial_type": "html-keyboard-response",
        "trial_index": 25,
        "time_elapsed": 27458,
        "internal_node_id": "0.0-3.0-22.0"
    },
    {
        "rt": null,
        "stimulus": "<p></p>",
        "key_press": null,
        "stims_type": "3 digits no repeats",
        "item": "451",
        "difficulty": "easy",
        "item_type": "WMBackwardDigitSpan",
        "answer": "362",
        "trial_type": "html-keyboard-response",
        "trial_index": 26,
        "time_elapsed": 28459,
        "internal_node_id": "0.0-3.0-23.0"
    },
    {
        "rt": null,
        "stimulus": "<p style=\"font-size: 100px\">3</p>",
        "key_press": null,
        "stims_type": "3 digits no repeats",
        "item": "451",
        "difficulty": "easy",
        "item_type": "WMBackwardDigitSpan",
        "answer": "362",
        "trial_type": "html-keyboard-response",
        "trial_index": 27,
        "time_elapsed": 29460,
        "internal_node_id": "0.0-3.0-24.0"
    },
    {
        "rt": null,
        "stimulus": "<p></p>",
        "key_press": null,
        "stims_type": "3 digits no repeats",
        "item": "451",
        "difficulty": "easy",
        "item_type": "WMBackwardDigitSpan",
        "answer": "362",
        "trial_type": "html-keyboard-response",
        "trial_index": 28,
        "time_elapsed": 30461,
        "internal_node_id": "0.0-3.0-25.0"
    },
    {
        "rt": null,
        "stimulus": "<p style=\"font-size: 120px\">+</p>",
        "key_press": null,
        "stims_type": "3 digits no repeats",
        "item": "451",
        "difficulty": "easy",
        "item_type": "WMBackwardDigitSpan",
        "answer": "362",
        "trial_type": "html-keyboard-response",
        "trial_index": 29,
        "time_elapsed": 31462,
        "internal_node_id": "0.0-3.0-26.0"
    },
    {
        "rt": null,
        "answer": "362",
        "stored": true,
        "stims_type": "3 digits no repeats",
        "item": "451",
        "difficulty": "easy",
        "item_type": "WMBackwardDigitSpan",
        "trial_type": "string-entry",
        "trial_index": 30,
        "time_elapsed": 46463,
        "internal_node_id": "0.0-3.0-27.0"
    },
    {
        "rt": 4017,
        "stimulus": "Press space to continue...",
        "key_press": 32,
        "stims_type": "3 digits no repeats",
        "item": "451",
        "difficulty": "easy",
        "item_type": "WMBackwardDigitSpan",
        "answer": "362",
        "trial_type": "html-keyboard-response",
        "trial_index": 31,
        "time_elapsed": 50482,
        "internal_node_id": "0.0-3.0-28.0"
    },
    {
        "stims_type": "3 digits no repeats",
        "item": "451",
        "difficulty": "easy",
        "item_type": "WMBackwardDigitSpan",
        "answer": "362",
        "trial_type": "call-function",
        "trial_index": 32,
        "time_elapsed": 50487,
        "internal_node_id": "0.0-3.0-29.0"
    },
    {
        "rt": 843,
        "stimulus": "Click the name for each object.",
        "key_press": 32,
        "stims_type": "",
        "item": "202",
        "difficulty": "easy",
        "answer": "calculator",
        "key": [
            "switch",
            "calculator",
            "stapler",
            "pants"
        ],
        "item_type": "SMObjectNaming",
        "trial_type": "html-keyboard-response",
        "trial_index": 33,
        "time_elapsed": 51331,
        "internal_node_id": "0.0-4.0-0.0"
    },
    {
        "rt": 1374,
        "stimulus": "./img/stapler.jpg",
        "button_pressed": "2",
        "stored": true,
        "stims_type": "",
        "item": "202",
        "difficulty": "easy",
        "answer": "stapler",
        "key": [
            "pants",
            "calculator",
            "stapler",
            "switch"
        ],
        "trial_type": "image-button-response",
        "trial_index": 34,
        "time_elapsed": 52707,
        "internal_node_id": "0.0-4.0-1.0"
    },
    {
        "rt": 1154,
        "stimulus": "./img/pants.jpg",
        "button_pressed": "2",
        "stored": true,
        "stims_type": "",
        "item": "202",
        "difficulty": "easy",
        "answer": "pants",
        "key": [
            "stapler",
            "calculator",
            "pants",
            "switch"
        ],
        "trial_type": "image-button-response",
        "trial_index": 35,
        "time_elapsed": 53865,
        "internal_node_id": "0.0-4.0-2.0"
    },
    {
        "rt": 792,
        "stimulus": "./img/calculator.jpg",
        "button_pressed": "1",
        "stored": true,
        "stims_type": "",
        "item": "202",
        "difficulty": "easy",
        "answer": "calculator",
        "key": [
            "switch",
            "calculator",
            "stapler",
            "pants"
        ],
        "trial_type": "image-button-response",
        "trial_index": 36,
        "time_elapsed": 54659,
        "internal_node_id": "0.0-4.0-3.0"
    },
    {
        "stims_type": "",
        "item": "202",
        "difficulty": "easy",
        "answer": "calculator",
        "key": [
            "switch",
            "calculator",
            "stapler",
            "pants"
        ],
        "item_type": "SMObjectNaming",
        "trial_type": "call-function",
        "trial_index": 37,
        "time_elapsed": 54665,
        "internal_node_id": "0.0-4.0-4.0"
    },
    {
        "rt": 10145,
        "stimulus": "<p>Which is the most frequent feature:</p><p>Shape, Color, or Number?</p>",
        "key_press": 32,
        "stims_type": "",
        "item": "752",
        "difficulty": "easy",
        "key": [
            "shape",
            "color",
            "number"
        ],
        "answer": "number",
        "item_type": "EFRuleID",
        "trial_type": "html-keyboard-response",
        "trial_index": 38,
        "time_elapsed": 64810,
        "internal_node_id": "0.0-5.0-0.0"
    }
]